'4elt_768.cgd' 'Mar 24 2016 03:12' 'I'         60.    1  'TIME'   11  'RAW'
  Filename         Date            Scan       Mon    Prf  Base   #pts  Type    
Sample 4 10nmSiO2 15nmW in EC,dDEC, LiPF6 with W C 
 460    1  500  512 608 512   0   5.0000  0.00000 0.00000   0.00000    1 
 Collimation      Mosaic    Wavelength   T-Start   Incr.   H-field #Det    
  1       0.12000    0.01200    0.24000
  2       0.12000    0.01200    0.24000
  3       0.50000    0.05000    1.00000
  4       1.00000    0.10000    2.00000
  5       0.60000    0.06000    1.20000
  6       0.80000    0.08000    1.60000
 Mot:    Start       Step      End
     A4        A3        A1        A2        A5        A6     MIN      MONITOR      COUNTS 
           1         0.5        0.12        0.12         0.6         0.8 1.00       38024         275 
         1.1        0.55       0.132       0.132        0.66        0.88 1.00       40461         254 
         1.2         0.6       0.144       0.144        0.72        0.96 1.00       43587         189 
         1.3        0.65       0.156       0.156        0.78        1.04 1.00       46225         163 
         1.4         0.7       0.168       0.168        0.84        1.12 1.00       48890         106 
         1.5        0.75        0.18        0.18         0.9         1.2 1.00       51892          72 
         1.6         0.8       0.192       0.192        0.96        1.28 1.00       54333          51 
         1.7        0.85       0.204       0.204        1.02        1.36 1.00       57125          48 
         1.8         0.9       0.216       0.216        1.08        1.44 1.00       60016          25 
         1.9        0.95       0.228       0.228        1.14        1.52 1.00       63212          41 
           2           1        0.24        0.24         1.2         1.6 1.00       66345          50 
