'4elt_787.cgd' 'Mar 24 2016 08:46' 'I'         60.    1  'TIME'   11  'RAW'
  Filename         Date            Scan       Mon    Prf  Base   #pts  Type    
Sample 4 10nmSiO2 15nmW in EC,dDEC, LiPF6 with W C 
 460    1  500  512 608 512   0   5.0000  0.00000 0.00000   0.00000    1 
 Collimation      Mosaic    Wavelength   T-Start   Incr.   H-field #Det    
  1       0.12000    0.01200    0.24000
  2       0.12000    0.01200    0.24000
  3       0.50000    0.05000    1.00000
  4       1.00000    0.10000    2.00000
  5       0.60000    0.06000    1.20000
  6       0.80000    0.08000    1.60000
 Mot:    Start       Step      End
     A4        A3        A1        A2        A5        A6     MIN      MONITOR      COUNTS 
           1         0.5        0.12        0.12         0.6         0.8 1.00       38042         291 
         1.1        0.55       0.132       0.132        0.66        0.88 1.00       40657         264 
         1.2         0.6       0.144       0.144        0.72        0.96 1.00       43364         225 
         1.3        0.65       0.156       0.156        0.78        1.04 1.00       45694         151 
         1.4         0.7       0.168       0.168        0.84        1.12 1.00       48966         102 
         1.5        0.75        0.18        0.18         0.9         1.2 1.00       52052          59 
         1.6         0.8       0.192       0.192        0.96        1.28 1.00       54344          40 
         1.7        0.85       0.204       0.204        1.02        1.36 1.00       57418          35 
         1.8         0.9       0.216       0.216        1.08        1.44 1.00       60412          46 
         1.9        0.95       0.228       0.228        1.14        1.52 1.00       62908          36 
           2           1        0.24        0.24         1.2         1.6 1.00       65917          51 
