'4elt_770.cgd' 'Mar 24 2016 03:39' 'I'        120.    1  'TIME'   49  'RAW'
  Filename         Date            Scan       Mon    Prf  Base   #pts  Type    
Sample 4 10nmSiO2 15nmW in EC,dDEC, LiPF6 with W C 
 460    1  500  512 608 512   0   5.0000  0.00000 0.00000   0.00000    1 
 Collimation      Mosaic    Wavelength   T-Start   Incr.   H-field #Det    
  1       0.38400    0.01200    0.96000
  2       0.38400    0.01200    0.96000
  3       1.60000    0.05000    4.00000
  4       3.20000    0.10000    8.00000
  5       1.92000    0.06000    4.80000
  6       2.56000    0.08000    6.40000
 Mot:    Start       Step      End
     A4        A3        A1        A2        A5        A6     MIN      MONITOR      COUNTS 
         3.2         1.6       0.384       0.384        1.92        2.56 2.00      197368          72 
         3.3        1.65       0.396       0.396        1.98        2.64 2.00      202892          70 
         3.4         1.7       0.408       0.408        2.04        2.72 2.00      206528          64 
         3.5        1.75        0.42        0.42         2.1         2.8 2.00      212804          61 
         3.6         1.8       0.432       0.432        2.16        2.88 2.00      217934          68 
         3.7        1.85       0.444       0.444        2.22        2.96 2.00      222471          42 
         3.8         1.9       0.456       0.456        2.28        3.04 2.00      228325          82 
         3.9        1.95       0.468       0.468        2.34        3.12 2.00      232010          75 
           4           2        0.48        0.48         2.4         3.2 2.00      237687          52 
         4.1        2.05       0.492       0.492        2.46        3.28 2.00      243844          98 
         4.2         2.1       0.504       0.504        2.52        3.36 2.00      247489          78 
         4.3        2.15       0.516       0.516        2.58        3.44 2.00      253260          92 
         4.4         2.2       0.528       0.528        2.64        3.52 2.00      257720          86 
         4.5        2.25        0.54        0.54         2.7         3.6 2.00      261967          81 
         4.6         2.3       0.552       0.552        2.76        3.68 2.00      267899          72 
         4.7        2.35       0.564       0.564        2.82        3.76 2.00      273160          78 
         4.8         2.4       0.576       0.576        2.88        3.84 2.00      278061          89 
         4.9        2.45       0.588       0.588        2.94        3.92 2.00      281058          76 
           5         2.5         0.6         0.6           3           4 2.00      285621          70 
         5.1        2.55       0.612       0.612        3.06        4.08 2.00      290516         114 
         5.2         2.6       0.624       0.624        3.12        4.16 2.00      295869         103 
         5.3        2.65       0.636       0.636        3.18        4.24 2.00      300691         122 
         5.4         2.7       0.648       0.648        3.24        4.32 2.00      306428         101 
         5.5        2.75        0.66        0.66         3.3         4.4 2.00      310032         104 
         5.6         2.8       0.672       0.672        3.36        4.48 2.00      315976         108 
         5.7        2.85       0.684       0.684        3.42        4.56 2.00      319899          99 
         5.8         2.9       0.696       0.696        3.48        4.64 2.00      324894         120 
         5.9        2.95       0.708       0.708        3.54        4.72 2.00      329734         119 
           6           3        0.72        0.72         3.6         4.8 2.00      336720         117 
         6.1        3.05       0.732       0.732        3.66        4.88 2.00      339980         132 
         6.2         3.1       0.744       0.744        3.72        4.96 2.00      344162         144 
         6.3        3.15       0.756       0.756        3.78        5.04 2.00      350555         137 
         6.4         3.2       0.768       0.768        3.84        5.12 2.00      355547         154 
         6.5        3.25        0.78        0.78         3.9         5.2 2.00      359686         139 
         6.6         3.3       0.792       0.792        3.96        5.28 2.00      364182         166 
         6.7        3.35       0.804       0.804        4.02        5.36 2.00      368483         134 
         6.8         3.4       0.816       0.816        4.08        5.44 2.00      373487         159 
         6.9        3.45       0.828       0.828        4.14        5.52 2.00      379122         149 
           7         3.5        0.84        0.84         4.2         5.6 2.00      382725         146 
         7.1        3.55       0.852       0.852        4.26        5.68 2.00      387443         185 
         7.2         3.6       0.864       0.864        4.32        5.76 2.00      391596         161 
         7.3        3.65       0.876       0.876        4.38        5.84 2.00      397690         183 
         7.4         3.7       0.888       0.888        4.44        5.92 2.00      402869         193 
         7.5        3.75         0.9         0.9         4.5           6 2.00      405463         184 
         7.6         3.8       0.912       0.912        4.56        6.08 2.00      412556         180 
         7.7        3.85       0.924       0.924        4.62        6.16 2.00      417331         187 
         7.8         3.9       0.936       0.936        4.68        6.24 2.00      423400         204 
         7.9        3.95       0.948       0.948        4.74        6.32 2.00      425918         207 
           8           4        0.96        0.96         4.8         6.4 2.00      432257         177 
