'4elt_789.cgd' 'Mar 24 2016 09:13' 'I'        120.    1  'TIME'   29  'RAW'
  Filename         Date            Scan       Mon    Prf  Base   #pts  Type    
Sample 4 10nmSiO2 15nmW in EC,dDEC, LiPF6 with W C 
 460    1  500  512 608 512   0   5.0000  0.00000 0.00000   0.00000    1 
 Collimation      Mosaic    Wavelength   T-Start   Incr.   H-field #Det    
  1       0.38400    0.01200    0.72000
  2       0.38400    0.01200    0.72000
  3       1.60000    0.05000    3.00000
  4       3.20000    0.10000    6.00000
  5       1.92000    0.06000    3.60000
  6       2.56000    0.08000    4.80000
 Mot:    Start       Step      End
     A4        A3        A1        A2        A5        A6     MIN      MONITOR      COUNTS 
         3.2         1.6       0.384       0.384        1.92        2.56 2.00      196790          55 
         3.3        1.65       0.396       0.396        1.98        2.64 2.00      202202          67 
         3.4         1.7       0.408       0.408        2.04        2.72 2.00      207553          66 
         3.5        1.75        0.42        0.42         2.1         2.8 2.00      213598          70 
         3.6         1.8       0.432       0.432        2.16        2.88 2.00      217755          75 
         3.7        1.85       0.444       0.444        2.22        2.96 2.00      223015          63 
         3.8         1.9       0.456       0.456        2.28        3.04 2.00      227557          72 
         3.9        1.95       0.468       0.468        2.34        3.12 2.00      232724          78 
           4           2        0.48        0.48         2.4         3.2 2.00      238514          83 
         4.1        2.05       0.492       0.492        2.46        3.28 2.00      243121          90 
         4.2         2.1       0.504       0.504        2.52        3.36 2.00      248971          90 
         4.3        2.15       0.516       0.516        2.58        3.44 2.00      253156          73 
         4.4         2.2       0.528       0.528        2.64        3.52 2.00      258158          74 
         4.5        2.25        0.54        0.54         2.7         3.6 2.00      262872          79 
         4.6         2.3       0.552       0.552        2.76        3.68 2.00      268566          71 
         4.7        2.35       0.564       0.564        2.82        3.76 2.00      273186          75 
         4.8         2.4       0.576       0.576        2.88        3.84 2.00      277516          79 
         4.9        2.45       0.588       0.588        2.94        3.92 2.00      282164          87 
           5         2.5         0.6         0.6           3           4 2.00      286868          76 
         5.1        2.55       0.612       0.612        3.06        4.08 2.00      291809          94 
         5.2         2.6       0.624       0.624        3.12        4.16 2.00      297160          88 
         5.3        2.65       0.636       0.636        3.18        4.24 2.00      303301         104 
         5.4         2.7       0.648       0.648        3.24        4.32 2.00      306808         106 
         5.5        2.75        0.66        0.66         3.3         4.4 2.00      312529         100 
         5.6         2.8       0.672       0.672        3.36        4.48 2.00      316825          85 
         5.7        2.85       0.684       0.684        3.42        4.56 2.00      322525         107 
         5.8         2.9       0.696       0.696        3.48        4.64 2.00      327020         103 
         5.9        2.95       0.708       0.708        3.54        4.72 2.00      331049         106 
           6           3        0.72        0.72         3.6         4.8 2.00      337959         124 
