'4elt_781.cgd' 'Mar 24 2016 06:56' 'I'         60.    1  'TIME'    8  'RAW'
  Filename         Date            Scan       Mon    Prf  Base   #pts  Type    
Sample 4 10nmSiO2 15nmW in EC,dDEC, LiPF6 with W C 
 460    1  500  512 608 512   0   5.0000  0.00000 0.00000   0.00000    1 
 Collimation      Mosaic    Wavelength   T-Start   Incr.   H-field #Det    
  1       0.05000    0.00000    0.05000
  2       0.05000    0.00000    0.05000
  3       0.15000    0.05000    0.50000
  4       0.30000    0.10000    1.00000
  5       0.60000    0.00000    0.60000
  6       0.80000    0.00000    0.80000
 Mot:    Start       Step      End
     A4        A3     MIN      MONITOR      COUNTS 
         0.3        0.15 1.00       24580        7629 
         0.4         0.2 1.00       24274        7189 
         0.5        0.25 1.00       24726         171 
         0.6         0.3 1.00       24335          35 
         0.7        0.35 1.00       24339          56 
         0.8         0.4 1.00       24392          62 
         0.9        0.45 1.00       24224          56 
           1         0.5 1.00       24202          60 
