'4elt_800.cgd' 'Mar 24 2016 12:08' 'I'      80000.    1  'NEUT'   34  'RAW'
  Filename         Date            Scan       Mon    Prf  Base   #pts  Type    
slit scan 3 10x attenuator                         
 460    1  500  512 608 512   0   5.0000  0.00000 0.00000   0.00000    1 
 Collimation      Mosaic    Wavelength   T-Start   Incr.   H-field #Det    
  1       0.40800    0.02400    1.20000
  2       0.40800    0.02400    1.20000
  3       0.00000    0.00000    0.00000
  4       0.00000    0.00000    0.00000
  5       2.04000    0.12000    6.00000
  6       2.72000    0.16000    8.00000
 Mot:    Start       Step      End
     A1        A2        A5        A6     MIN      MONITOR      COUNTS 
       0.408       0.408        2.04        2.72 0.76       80000       44842 
       0.432       0.432        2.16        2.88 0.73       80000       47963 
       0.456       0.456        2.28        3.04 0.69       80000       50696 
        0.48        0.48         2.4         3.2 0.67       80000       53870 
       0.504       0.504        2.52        3.36 0.64       80000       57029 
       0.528       0.528        2.64        3.52 0.62       80000       59307 
       0.552       0.552        2.76        3.68 0.59       80000       62292 
       0.576       0.576        2.88        3.84 0.57       80000       65228 
         0.6         0.6           3           4 0.55       80000       67401 
       0.624       0.624        3.12        4.16 0.53       80000       70449 
       0.648       0.648        3.24        4.32 0.52       80000       73335 
       0.672       0.672        3.36        4.48 0.50       80000       76032 
       0.696       0.696        3.48        4.64 0.49       80000       79084 
        0.72        0.72         3.6         4.8 0.48       80000       81707 
       0.744       0.744        3.72        4.96 0.46       80000       84992 
       0.768       0.768        3.84        5.12 0.45       80000       87687 
       0.792       0.792        3.96        5.28 0.43       80000       89770 
       0.816       0.816        4.08        5.44 0.43       80000       92889 
        0.84        0.84         4.2         5.6 0.42       80000       95427 
       0.864       0.864        4.32        5.76 0.41       80000       98452 
       0.888       0.888        4.44        5.92 0.40       80000      101179 
       0.912       0.912        4.56        6.08 0.39       80000      104030 
       0.936       0.936        4.68        6.24 0.38       80000      106843 
        0.96        0.96         4.8         6.4 0.37       80000      109031 
       0.984       0.984        4.92        6.56 0.36       80000      112769 
       1.008       1.008        5.04        6.72 0.35       80000      114282 
       1.032       1.032        5.16        6.88 0.35       80000      117623 
       1.056       1.056        5.28        7.04 0.34       80000      121444 
        1.08        1.08         5.4         7.2 0.33       80000      123166 
       1.104       1.104        5.52        7.36 0.33       80000      125207 
       1.128       1.128        5.64        7.52 0.32       80000      127788 
       1.152       1.152        5.76        7.68 0.31       80000      130346 
       1.176       1.176        5.88        7.84 0.30       80000      131938 
         1.2         1.2           6           8 0.30       80000      134934 
